#Temperature (K) densities in kg/m^3
#source http://pages.uoregon.edu/rjd/table.htm (Russel J.Donnelly) up to 2.1K
#source http://webbook.nist.gov/chemistry/fluid/ from 2.1K 
#the data point for P=5atm and T=2.1K is added manually
#P(atm)	SVP	2.5	5
0.1	145.13	149.25	152.84
0.15	145.13	149.25	152.84
0.2	145.13	149.25	152.84
0.25	145.13	149.25	152.84
0.3	145.13	149.25	152.84
0.35	145.13	149.25	152.84
0.4	145.13	149.25	152.84
0.45	145.13	149.25	152.83
0.5	145.13	149.25	152.83
0.55	145.13	149.25	152.83
0.6	145.13	149.25	152.83
0.65	145.12	149.25	152.83
0.7	145.12	149.25	152.83
0.75	145.12	149.25	152.83
0.8	145.12	149.24	152.83
0.85	145.12	149.24	152.83
0.9	145.11	149.24	152.83
0.95	145.11	149.24	152.83
1	145.11	149.25	152.84
1.05	145.11	149.25	152.84
1.1	145.1	149.25	152.85
1.15	145.1	149.26	152.86
1.2	145.11	149.26	152.87
1.25	145.11	149.27	152.89
1.3	145.11	149.29	152.91
1.35	145.12	149.3	152.93
1.4	145.13	149.32	152.96
1.45	145.14	149.34	152.99
1.5	145.16	149.37	153.03
1.55	145.18	149.41	153.03
1.6	145.2	149.44	153.13
1.65	145.23	149.49	153.19
1.7	145.26	149.54	153.27
1.75	145.3	149.6	153.35
1.8	145.35	149.67	153.45
1.85	145.4	149.75	153.57
1.9	145.46	149.84	153.7
1.95	145.53	149.96	153.87
2	145.61	150.09	154.05
2.05	145.7	150.24	154.27
2.1	145.82	150.41	154.8
2.1768	146.24	151.01	155.04
2.1909	146.21	150.98	155.02
2.205	146.17	150.95	154.99
2.2191	146.13	150.92	154.96
2.2333	146.09	150.88	154.93
2.2474	146.05	150.84	154.9
2.2615	146.01	150.81	154.87
2.2756	145.96	150.77	154.84
2.2897	145.91	150.72	154.8
2.3038	145.86	150.68	154.76
2.318	145.81	150.64	154.72
2.3321	145.75	150.59	154.68
2.3462	145.7	150.54	154.64
2.3603	145.64	150.49	154.6
2.3744	145.58	150.44	154.56
2.3885	145.52	150.38	154.51
2.4027	145.45	150.33	154.46
2.4168	145.39	150.27	154.42
2.4309	145.32	150.21	154.37
2.445	145.25	150.16	154.32
2.4591	145.18	150.09	154.26
2.4732	145.11	150.03	154.21
2.4874	145.03	149.97	154.16
2.5015	144.95	149.9	154.1
2.5156	144.88	149.84	154.05
2.5297	144.8	149.77	153.99
2.5438	144.72	149.7	153.93
2.5579	144.64	149.63	153.87
2.572	144.55	149.56	153.81
2.5862	144.47	149.48	153.75
2.6003	144.38	149.41	153.69
2.6144	144.29	149.33	153.62
2.6285	144.2	149.25	153.56
2.6426	144.11	149.18	153.49
2.6567	144.02	149.1	153.43
2.6709	143.92	149.02	153.36
2.685	143.83	148.93	153.29
2.6991	143.73	148.85	153.22
2.7132	143.63	148.77	153.15
2.7273	143.53	148.68	153.08
2.7414	143.43	148.59	153.01
2.7556	143.33	148.5	152.93
2.7697	143.23	148.42	152.86
2.7838	143.12	148.32	152.78
2.7979	143.01	148.23	152.71
2.812	142.91	148.14	152.63
2.8261	142.8	148.05	152.55
2.8403	142.69	147.95	152.47
2.8544	142.58	147.85	152.39
2.8685	142.46	147.76	152.31
2.8826	142.35	147.66	152.23
2.8967	142.23	147.56	152.15
2.9108	142.11	147.46	152.07
2.9249	142	147.36	151.98
2.9391	141.88	147.25	151.9
2.9532	141.76	147.15	151.81
2.9673	141.63	147.04	151.72
2.9814	141.51	146.94	151.64
2.9955	141.39	146.83	151.55
3.0096	141.26	146.72	151.46
3.0238	141.13	146.61	151.37
3.0379	141	146.5	151.28
3.052	140.87	146.39	151.18
3.0661	140.74	146.27	151.09
3.0802	140.61	146.16	151
3.0943	140.47	146.04	150.9
3.1085	140.34	145.93	150.81
3.1226	140.2	145.81	150.71
3.1367	140.07	145.69	150.61
3.1508	139.93	145.57	150.52
3.1649	139.79	145.45	150.42
3.179	139.64	145.33	150.32
3.1932	139.5	145.2	150.22
3.2073	139.36	145.08	150.12
3.2214	139.21	144.95	150.01
3.2355	139.06	144.83	149.91
3.2496	138.92	144.7	149.81
3.2637	138.77	144.57	149.7
3.2778	138.62	144.44	149.6
3.292	138.46	144.31	149.49
3.3061	138.31	144.17	149.38
3.3202	138.16	144.04	149.28
3.3343	138	143.9	149.17
3.3484	137.84	143.77	149.06
3.3625	137.68	143.63	148.95
3.3767	137.52	143.49	148.84
3.3908	137.36	143.35	148.72
3.4049	137.2	143.21	148.61
3.419	137.03	143.07	148.5
3.4331	136.87	142.92	148.38
3.4472	136.7	142.78	148.27
3.4614	136.53	142.63	148.15
3.4755	136.36	142.48	148.03
3.4896	136.19	142.34	147.91
3.5037	136.02	142.19	147.79
3.5178	135.84	142.04	147.68
3.5319	135.67	141.88	147.55
3.5461	135.49	141.73	147.43
3.5602	135.31	141.57	147.31
3.5743	135.13	141.42	147.19
3.5884	134.95	141.26	147.06
3.6025	134.76	141.1	146.94
3.6166	134.58	140.94	146.81
3.6307	134.39	140.78	146.69
3.6449	134.2	140.61	146.56
3.659	134.01	140.45	146.43
3.6731	133.82	140.28	146.3
3.6872	133.63	140.12	146.17
3.7013	133.43	139.95	146.04
3.7154	133.24	139.78	145.91
3.7296	133.04	139.61	145.77
3.7437	132.84	139.43	145.64
3.7578	132.64	139.26	145.5
3.7719	132.44	139.08	145.37
3.786	132.23	138.9	145.23
3.8001	132.02	138.72	145.09
3.8143	131.82	138.54	144.96
3.8284	131.61	138.36	144.82
3.8425	131.39	138.18	144.68
3.8566	131.18	137.99	144.53
3.8707	130.96	137.8	144.39
3.8848	130.75	137.61	144.25
3.899	130.53	137.42	144.1
3.9131	130.31	137.23	143.96
3.9272	130.08	137.04	143.81
3.9413	129.86	136.84	143.67
3.9554	129.63	136.64	143.52
3.9695	129.4	136.44	143.37
3.9836	129.17	136.24	143.22
3.9978	128.93	136.04	143.07
4.0119	128.7	135.84	142.92
4.026	128.46	135.63	142.76
4.0401	128.22	135.42	142.61
4.0542	127.98	135.21	142.46
4.0683	127.73	135	142.3
4.0825	127.48	134.78	142.14
4.0966	127.23	134.57	141.98
4.1107	126.98	134.35	141.83
4.1248	126.73	134.13	141.67
4.1389	126.47	133.9	141.5
4.153	126.21	133.68	141.34
4.1672	125.95	133.45	141.18
4.1813	125.68	133.22	141.01
4.1954	125.41	132.99	140.85
4.2095	125.14	132.75	140.68
4.2236	124.87	132.52	140.52
4.2377	124.59	132.28	140.35
4.2519	124.31	132.03	140.18
4.266	124.03	131.79	140.01
4.2801	123.74	131.54	139.83
4.2942	123.45	131.29	139.66
4.3083	123.16	131.04	139.49
4.3224	122.86	130.79	139.31
4.3365	122.56	130.53	139.13
4.3507	122.26	130.27	138.96
4.3648	121.95	130	138.78
4.3789	121.64	129.74	138.6
4.393	121.33	129.47	138.42
4.4071	121.01	129.19	138.23
4.4212	120.69	128.92	138.05
4.4354	120.36	128.64	137.86
4.4495	120.03	128.35	137.68
4.4636	119.7	128.07	137.49
4.4777	119.36	127.78	137.3
4.4918	119.01	127.48	137.11
4.5059	118.66	127.18	136.92
4.5201	118.31	126.88	136.73
4.5342	117.95	126.58	136.53
4.5483	117.59	126.27	136.34
4.5624	117.22	125.95	136.14
4.5765	116.84	125.63	135.94
4.5906	116.46	125.31	135.74
4.6048	116.07	124.98	135.54
4.6189	115.68	124.65	135.34
4.633	115.28	124.31	135.13
4.6471	114.87	123.97	134.93
4.6612	114.45	123.62	134.72
4.6753	114.03	123.26	134.51
4.6894	113.6	122.9	134.3
4.7036	113.16	122.54	134.09
4.7177	112.71	122.16	133.88
4.7318	112.25	121.78	133.66
4.7459	111.79	121.4	133.44
4.76	111.31	121.01	133.23
4.7741	110.82	120.61	133.01
4.7883	110.33	120.2	132.79
4.8024	109.82	119.78	132.56
4.8165	109.29	119.36	132.34
4.8306	108.76	118.92	132.11
4.8447	108.21	118.48	131.88
4.8588	107.64	118.03	131.65
4.873	107.06	117.56	131.42
4.8871	106.46	117.09	131.19
4.9012	105.84	116.6	130.95
4.9153	105.2	116.1	130.72
4.9294	104.54	115.59	130.48
4.9435	103.86	115.07	130.24
4.9577	103.15	114.53	129.99
4.9718	102.41	113.97	129.75
4.9859	101.63	113.4	129.5
5	100.83	112.81	129.25
